ARQUIVO DE MEDIDA
Usuário: ivan
Amostra: Nenhuma
Comentário: Teste #14: idem à medida anterior, mas usando a segunda grade
Parâmetros: vmode 1 sen 27 acgain 0 tc 10 27.000000 4.300000
Magnitude (mV)	Comprimento de onda(nm)
9.700000	1000.000000
9.533333	1010.017069
9.400000	1020.039170
9.000000	1030.058304
8.500000	1040.074442
7.900000	1050.087555
7.300000	1060.097614
6.600000	1070.104589
5.900000	1080.108452
5.200000	1090.109174
4.500000	1100.106725
3.900000	1110.101076
3.400000	1120.092199
2.933333	1130.080064
2.500000	1140.064641
2.100000	1150.045904
1.700000	1160.023821
1.400000	1169.998364
1.100000	1179.969504
0.900000	1189.937212
0.700000	1199.967002
0.500000	1209.993256
0.300000	1220.015944
0.200000	1230.035037
0.300000	1240.050505
0.166667	1250.062319
0.100000	1260.070449
0.066667	1270.074865
0.100000	1280.075539
0.100000	1290.072441
0.100000	1300.065540
0.100000	1310.054809
0.300000	1320.040217
0.400000	1330.021735
0.400000	1339.999333
0.566667	1349.972983
0.800000	1359.942655
1.000000	1369.973440
1.100000	1380.000136
1.200000	1390.022711
1.366667	1400.041137
1.600000	1410.055382
1.700000	1420.065418
1.900000	1430.071214
2.000000	1440.072740
2.200000	1450.069968
2.333333	1460.062865
2.533333	1470.051404
2.800000	1480.035554
3.000000	1490.015285
3.200000	1499.990568
3.400000	1509.961372
3.600000	1519.992369
3.900000	1530.018770
4.100000	1540.040543
4.266667	1550.057658
4.500000	1560.070085
4.800000	1570.077794
5.000000	1580.080754
5.100000	1590.078935
5.366667	1600.072307
5.600000	1610.060840
5.833333	1620.044503
6.100000	1630.023267
6.400000	1639.997100
6.700000	1649.965974
7.033333	1659.994124
7.400000	1670.017188
7.800000	1680.035137
8.133333	1690.047938
8.500000	1700.055561
8.866667	1710.057977
9.400000	1720.055153
9.833333	1730.047060
10.200000	1740.033667
10.600000	1750.014942
11.100000	1759.990857
11.600000	1769.961379
12.000000	1779.990341
12.300000	1790.013779
12.600000	1800.031663
13.000000	1810.043961
13.333333	1820.050642
13.433333	1830.051676
13.700000	1840.047031
13.933333	1850.036677
14.200000	1860.020582
14.300000	1869.998715
14.200000	1879.971046
14.400000	1890.001005
14.466667	1900.025024
14.700000	1910.043073
14.800000	1920.055119
14.700000	1930.061130
14.700000	1940.061076
14.500000	1950.054926
14.400000	1960.042646
14.233333	1970.024208
14.000000	1979.999578
13.800000	1989.968725
13.433333	1999.994655
