ARQUIVO DE MEDIDA
Usuário: 
Amostra: 
Comentário: Primeira medida agregando uma carga ao detector de  Si: carga de 51 k Ohm
Parâmetros: vmode 1 sen 25 acgain 0 tc 10 23.000000 4.000000
Magnitude (mV)	Comprimento de onda(nm)
0.093333	500.000000
0.120000	510.011571
0.093333	520.024111
0.126667	530.030641
0.106667	540.031045
0.120000	550.025207
0.106667	560.013012
0.113333	570.027276
0.120000	580.034908
0.093333	590.035792
0.113333	600.029811
0.126667	610.016850
0.100000	620.029609
0.120000	630.035106
0.100000	640.033226
0.153333	650.023850
0.120000	660.039581
0.113333	670.047531
0.146667	680.047583
0.180000	690.039619
0.166667	700.023520
0.180000	710.031757
0.180000	720.031570
0.233333	730.022839
0.240000	740.037949
0.266667	750.044222
0.280000	760.041537
0.313333	770.029776
0.360000	780.041203
0.406667	790.043254
0.420000	800.035809
0.486667	810.051040
0.526667	820.056470
0.566667	830.051979
0.613333	840.037447
0.693333	850.044914
0.766667	860.042031
0.833333	870.028676
0.966667	880.036787
0.993333	890.034114
1.146667	900.020535
1.200000	910.027880
1.346667	920.024003
1.360000	930.008778
1.546667	940.013929
1.666667	950.007412
1.866667	960.020874
2.000000	970.022344
2.093333	980.011697
1.966667	990.020462
1.773333	1000.016782
1.560000	1010.032105
1.340000	1020.034651
1.113333	1030.024293
0.906667	1040.032357
0.740000	1050.027180
0.573333	1060.040003
0.453333	1070.039247
0.360000	1080.024783
0.273333	1090.027721
0.220000	1100.016607
0.166667	1110.022462
0.153333	1120.013918
0.133333	1130.021903
0.133333	1140.015139
0.133333	1150.024460
0.106667	1160.018678
0.126667	1170.028530
0.120000	1180.022920
0.106667	1190.032491
0.100000	1200.026238
0.113333	1210.034705
0.113333	1220.026982
0.106667	1230.033513
0.126667	1240.023486
0.106667	1250.027241
0.120000	1260.014067
0.106667	1270.014196
0.100000	1280.027337
0.106667	1290.022929
0.106667	1300.031045
0.126667	1310.021231
0.120000	1320.023448
0.120000	1330.037393
0.113333	1340.032772
0.106667	1350.039375
0.120000	1360.027020
0.093333	1370.025382
0.113333	1380.034147
0.106667	1390.023299
0.120000	1400.022337
0.126667	1410.030941
0.120000	1420.019265
0.126667	1430.016627
0.113333	1440.022700
0.120000	1450.037154
0.093333	1460.030382
0.120000	1470.031449
0.106667	1480.040018
0.100000	1490.026667
0.113333	1500.020266
0.086667	1510.020474
0.133333	1520.026943
0.100000	1530.039325
0.133333	1540.028514
0.093333	1550.023046
0.120000	1560.022565
0.106667	1570.026713
0.106667	1580.035128
0.106667	1590.047446
0.086667	1600.034963
0.120000	1610.025790
0.100000	1620.019556
0.093333	1630.015887
0.106667	1640.014407
0.100000	1650.014737
0.120000	1660.016494
0.100000	1670.019293
0.100000	1680.022747
0.113333	1690.026464
0.086667	1700.030050
0.146667	1710.033109
0.113333	1720.035241
0.126667	1730.036043
0.106667	1740.035110
0.120000	1750.032034
0.153333	1760.026402
0.093333	1770.017802
0.140000	1780.005815
0.140000	1790.016891
0.153333	1800.023569
0.100000	1810.025420
0.133333	1820.022015
0.153333	1830.012918
0.100000	1840.024134
0.113333	1850.028606
0.146667	1860.025888
0.160000	1870.015534
0.140000	1880.023177
0.153333	1890.022095
0.133333	1900.011831
0.120000	1910.017731
0.133333	1920.013335
0.126667	1930.023793
0.146667	1940.022821
0.146667	1950.035370
0.140000	1960.035337
0.113333	1970.047468
0.126667	1980.045845
0.126667	1990.055007
0.140000	2000.049221
