ARQUIVO DE MEDIDA
Usuário: 
Amostra: 
Comentário: Medida de tensão sobre carga de 0,127MOhm acoplada ao sensor de Si (grade 2 desabilitada)
Parâmetros: vmode 1 sen 26 acgain 0 tc 10 23.000000 4.000000
Magnitude (mV)	Comprimento de onda(nm)
0.083333	500.000000
0.066667	510.011571
0.083333	520.024111
0.066667	530.030641
0.116667	540.031045
0.133333	550.025207
0.066667	560.013012
0.116667	570.027276
0.083333	580.034908
0.083333	590.035792
0.083333	600.029811
0.116667	610.016850
0.133333	620.029609
0.100000	630.035106
0.183333	640.033226
0.166667	650.023850
0.200000	660.039581
0.266667	670.047531
0.300000	680.047583
0.316667	690.039619
0.383333	700.023520
0.433333	710.031757
0.483333	720.031570
0.533333	730.022839
0.650000	740.037949
0.666667	750.044222
0.683333	760.041537
0.766667	770.029776
0.866667	780.041203
0.966667	790.043254
1.066667	800.035809
1.200000	810.051040
1.316667	820.056470
1.433333	830.051979
1.616667	840.037447
1.766667	850.044914
1.900000	860.042031
2.150000	870.028676
2.416667	880.036787
2.700000	890.034114
2.916667	900.020535
3.200000	910.027880
3.383333	920.024003
3.616667	930.008778
3.950000	940.013929
4.266667	950.007412
4.716667	960.020874
5.066667	970.022344
5.183333	980.011697
4.966667	990.020462
4.566667	1000.016782
4.033333	1010.032105
3.400000	1020.034651
2.966667	1030.024293
2.400000	1040.032357
1.900000	1050.027180
1.483333	1060.040003
1.133333	1070.039247
0.833333	1080.024783
0.716667	1090.027721
0.566667	1100.016607
0.416667	1110.022462
0.333333	1120.013918
0.266667	1130.021903
0.200000	1140.015139
0.133333	1150.024460
0.150000	1160.018678
0.116667	1170.028530
0.083333	1180.022920
0.116667	1190.032491
0.116667	1200.026238
0.116667	1210.034705
0.133333	1220.026982
0.116667	1230.033513
0.083333	1240.023486
0.116667	1250.027241
0.100000	1260.014067
0.100000	1270.014196
0.116667	1280.027337
0.116667	1290.022929
0.116667	1300.031045
0.116667	1310.021231
0.100000	1320.023448
0.100000	1330.037393
0.100000	1340.032772
0.133333	1350.039375
0.133333	1360.027020
0.116667	1370.025382
0.133333	1380.034147
0.150000	1390.023299
0.133333	1400.022337
0.116667	1410.030941
0.133333	1420.019265
0.083333	1430.016627
0.150000	1440.022700
0.116667	1450.037154
0.116667	1460.030382
0.150000	1470.031449
0.116667	1480.040018
0.116667	1490.026667
0.133333	1500.020266
0.116667	1510.020474
0.150000	1520.026943
0.100000	1530.039325
0.100000	1540.028514
0.116667	1550.023046
0.116667	1560.022565
0.133333	1570.026713
0.133333	1580.035128
0.116667	1590.047446
0.166667	1600.034963
0.166667	1610.025790
0.116667	1620.019556
0.150000	1630.015887
0.150000	1640.014407
0.183333	1650.014737
0.116667	1660.016494
0.166667	1670.019293
0.183333	1680.022747
0.150000	1690.026464
0.166667	1700.030050
0.200000	1710.033109
0.216667	1720.035241
0.150000	1730.036043
0.200000	1740.035110
0.183333	1750.032034
0.200000	1760.026402
0.183333	1770.017802
0.216667	1780.005815
0.233333	1790.016891
0.250000	1800.023569
0.266667	1810.025420
0.283333	1820.022015
0.283333	1830.012918
0.266667	1840.024134
0.316667	1850.028606
0.333333	1860.025888
0.283333	1870.015534
0.333333	1880.023177
0.300000	1890.022095
0.333333	1900.011831
0.350000	1910.017731
0.300000	1920.013335
0.316667	1930.023793
0.300000	1940.022821
0.300000	1950.035370
0.300000	1960.035337
0.283333	1970.047468
0.300000	1980.045845
0.300000	1990.055007
0.233333	2000.049221
