ARQUIVO DE MEDIDA
Usuário: 
Amostra: 
Comentário: Igual ao anterior, com sensibilidade de 200 nA. Leitura no lock-in, em 980 nm (pico): 41 nA.
Parâmetros: vmode 1 sen 25 acgain 0 tc 10 23.000000 4.000000
Magnitude (mV)	Comprimento de onda(nm)
0.000000	500.000000
0.000000	510.011571
0.000000	520.024111
0.000000	530.030641
0.000000	540.031045
0.000000	550.025207
0.000000	560.013012
0.000000	570.027276
0.000000	580.034908
0.000000	590.035792
0.000000	600.029811
0.000001	610.016850
0.000001	620.029609
0.000001	630.035106
0.000001	640.033226
0.000001	650.023850
0.000002	660.039581
0.000002	670.047531
0.000002	680.047583
0.000003	690.039619
0.000003	700.023520
0.000003	710.031757
0.000004	720.031570
0.000004	730.022839
0.000005	740.037949
0.000005	750.044222
0.000006	760.041537
0.000006	770.029776
0.000007	780.041203
0.000008	790.043254
0.000008	800.035809
0.000009	810.051040
0.000010	820.056470
0.000011	830.051979
0.000012	840.037447
0.000014	850.044914
0.000016	860.042031
0.000017	870.028676
0.000019	880.036787
0.000021	890.034114
0.000023	900.020535
0.000025	910.027880
0.000027	920.024003
0.000028	930.008778
0.000031	940.013929
0.000034	950.007412
0.000038	960.020874
0.000040	970.022344
0.000041	980.011697
0.000040	990.020462
0.000036	1000.016782
0.000032	1010.032105
0.000028	1020.034651
0.000023	1030.024293
0.000019	1040.032357
0.000015	1050.027180
0.000012	1060.040003
0.000009	1070.039247
0.000007	1080.024783
0.000006	1090.027721
0.000004	1100.016607
